{
  "resourceType": "Bundle",
  "type": "transaction",
  "id": "pa-request-002",
  "timestamp": "2024-10-16T11:00:00Z",
  "entry": [
    {
      "fullUrl": "urn:uuid:patient-002",
      "resource": {
        "resourceType": "Patient",
        "id": "patient-002",
        "identifier": [
          {
            "system": "http://hospital.example.org/patients",
            "value": "MRN-891234"
          }
        ],
        "name": [
          {
            "use": "official",
            "family": "Martinez",
            "given": ["Carlos", "Roberto"]
          }
        ],
        "gender": "male",
        "birthDate": "1985-03-22",
        "address": [
          {
            "use": "home",
            "line": ["456 Oak Avenue"],
            "city": "Boston",
            "state": "MA",
            "postalCode": "02101"
          }
        ]
      }
    },
    {
      "fullUrl": "urn:uuid:condition-003",
      "resource": {
        "resourceType": "Condition",
        "id": "condition-003",
        "clinicalStatus": {
          "coding": [
            {
              "system": "http://terminology.hl7.org/CodeSystem/condition-clinical",
              "code": "active"
            }
          ]
        },
        "code": {
          "coding": [
            {
              "system": "http://hl7.org/fhir/sid/icd-10",
              "code": "M23.261",
              "display": "Derangement of posterior horn of medial meniscus due to old tear, right knee"
            }
          ],
          "text": "Medial meniscus tear, right knee"
        },
        "subject": {
          "reference": "urn:uuid:patient-002"
        },
        "onsetDateTime": "2024-07-10",
        "note": [
          {
            "text": "3-month history of right knee pain and locking. MRI confirms medial meniscus tear. Failed conservative treatment including physical therapy."
          }
        ]
      }
    },
    {
      "fullUrl": "urn:uuid:service-request-002",
      "resource": {
        "resourceType": "ServiceRequest",
        "id": "service-request-002",
        "status": "active",
        "intent": "order",
        "category": [
          {
            "coding": [
              {
                "system": "http://snomed.info/sct",
                "code": "387713003",
                "display": "Surgical procedure"
              }
            ]
          }
        ],
        "priority": "routine",
        "code": {
          "coding": [
            {
              "system": "http://www.ama-assn.org/go/cpt",
              "code": "29881",
              "display": "Arthroscopy, knee, surgical; with meniscectomy"
            }
          ],
          "text": "Arthroscopic meniscectomy, right knee"
        },
        "subject": {
          "reference": "urn:uuid:patient-002"
        },
        "authoredOn": "2024-10-16",
        "requester": {
          "reference": "Practitioner/dr-ortho",
          "display": "Dr. Emily Chen, MD - Orthopedic Surgery"
        },
        "reasonCode": [
          {
            "coding": [
              {
                "system": "http://hl7.org/fhir/sid/icd-10",
                "code": "M23.261",
                "display": "Medial meniscus tear"
              }
            ]
          }
        ],
        "reasonReference": [
          {
            "reference": "urn:uuid:condition-003"
          }
        ],
        "note": [
          {
            "text": "Patient is 39-year-old active male with confirmed medial meniscus tear on MRI. Has completed 8 weeks of physical therapy without improvement. Continues to experience mechanical symptoms including locking and catching. Surgery is medically necessary to restore function."
          }
        ]
      }
    },
    {
      "fullUrl": "urn:uuid:document-002",
      "resource": {
        "resourceType": "DocumentReference",
        "id": "document-002",
        "status": "current",
        "type": {
          "coding": [
            {
              "system": "http://loinc.org",
              "code": "34117-2",
              "display": "History and physical note"
            }
          ]
        },
        "subject": {
          "reference": "urn:uuid:patient-002"
        },
        "date": "2024-10-16T10:30:00Z",
        "author": [
          {
            "reference": "Practitioner/dr-ortho",
            "display": "Dr. Emily Chen, MD"
          }
        ],
        "content": [
          {
            "attachment": {
              "contentType": "text/plain",
              "data": ""
            }
          }
        ],
        "description": "Orthopedic consultation note supporting arthroscopy request"
      }
    }
  ]
}

