{
  "resourceType": "Bundle",
  "type": "transaction",
  "id": "pa-request-001",
  "timestamp": "2024-10-16T10:30:00Z",
  "entry": [
    {
      "fullUrl": "urn:uuid:patient-001",
      "resource": {
        "resourceType": "Patient",
        "id": "patient-001",
        "identifier": [
          {
            "system": "http://hospital.example.org/patients",
            "value": "MRN-784512"
          }
        ],
        "name": [
          {
            "use": "official",
            "family": "Johnson",
            "given": ["Sarah", "Marie"]
          }
        ],
        "gender": "female",
        "birthDate": "1978-05-15",
        "address": [
          {
            "use": "home",
            "line": ["123 Main Street"],
            "city": "Springfield",
            "state": "IL",
            "postalCode": "62701"
          }
        ],
        "telecom": [
          {
            "system": "phone",
            "value": "555-123-4567",
            "use": "mobile"
          }
        ]
      }
    },
    {
      "fullUrl": "urn:uuid:condition-001",
      "resource": {
        "resourceType": "Condition",
        "id": "condition-001",
        "clinicalStatus": {
          "coding": [
            {
              "system": "http://terminology.hl7.org/CodeSystem/condition-clinical",
              "code": "active"
            }
          ]
        },
        "verificationStatus": {
          "coding": [
            {
              "system": "http://terminology.hl7.org/CodeSystem/condition-ver-status",
              "code": "confirmed"
            }
          ]
        },
        "category": [
          {
            "coding": [
              {
                "system": "http://terminology.hl7.org/CodeSystem/condition-category",
                "code": "encounter-diagnosis"
              }
            ]
          }
        ],
        "code": {
          "coding": [
            {
              "system": "http://hl7.org/fhir/sid/icd-10",
              "code": "M54.16",
              "display": "Radiculopathy, lumbar region"
            }
          ],
          "text": "Lumbar radiculopathy with nerve root compression"
        },
        "subject": {
          "reference": "urn:uuid:patient-001"
        },
        "onsetDateTime": "2024-08-15",
        "note": [
          {
            "text": "Patient reports persistent lower back pain radiating to left leg for 6 weeks. Conservative management with PT and medications has provided minimal relief."
          }
        ]
      }
    },
    {
      "fullUrl": "urn:uuid:condition-002",
      "resource": {
        "resourceType": "Condition",
        "id": "condition-002",
        "clinicalStatus": {
          "coding": [
            {
              "system": "http://terminology.hl7.org/CodeSystem/condition-clinical",
              "code": "active"
            }
          ]
        },
        "code": {
          "coding": [
            {
              "system": "http://hl7.org/fhir/sid/icd-10",
              "code": "M51.26",
              "display": "Other intervertebral disc displacement, lumbar region"
            }
          ],
          "text": "Suspected L4-L5 disc herniation"
        },
        "subject": {
          "reference": "urn:uuid:patient-001"
        }
      }
    },
    {
      "fullUrl": "urn:uuid:service-request-001",
      "resource": {
        "resourceType": "ServiceRequest",
        "id": "service-request-001",
        "status": "active",
        "intent": "order",
        "category": [
          {
            "coding": [
              {
                "system": "http://snomed.info/sct",
                "code": "363679005",
                "display": "Imaging"
              }
            ]
          }
        ],
        "priority": "routine",
        "code": {
          "coding": [
            {
              "system": "http://www.ama-assn.org/go/cpt",
              "code": "72148",
              "display": "MRI lumbar spine without contrast"
            }
          ],
          "text": "MRI of lumbar spine without contrast material"
        },
        "subject": {
          "reference": "urn:uuid:patient-001"
        },
        "authoredOn": "2024-10-16",
        "requester": {
          "reference": "Practitioner/dr-smith",
          "display": "Dr. James Smith, MD"
        },
        "reasonCode": [
          {
            "coding": [
              {
                "system": "http://hl7.org/fhir/sid/icd-10",
                "code": "M54.16",
                "display": "Radiculopathy, lumbar region"
              }
            ]
          }
        ],
        "reasonReference": [
          {
            "reference": "urn:uuid:condition-001"
          }
        ],
        "note": [
          {
            "text": "Patient has failed conservative treatment including 6 weeks of physical therapy and anti-inflammatory medications. Neurological examination shows positive straight leg raise test on left. MRI needed to evaluate for surgical intervention vs. continued conservative management."
          }
        ]
      }
    },
    {
      "fullUrl": "urn:uuid:document-001",
      "resource": {
        "resourceType": "DocumentReference",
        "id": "document-001",
        "status": "current",
        "type": {
          "coding": [
            {
              "system": "http://loinc.org",
              "code": "11506-3",
              "display": "Progress note"
            }
          ]
        },
        "subject": {
          "reference": "urn:uuid:patient-001"
        },
        "date": "2024-10-16T10:00:00Z",
        "author": [
          {
            "reference": "Practitioner/dr-smith",
            "display": "Dr. James Smith, MD"
          }
        ],
        "content": [
          {
            "attachment": {
              "contentType": "text/plain",
              "data": ""
            }
          }
        ],
        "description": "Clinical note supporting MRI request"
      }
    }
  ]
}

